acc_x, acc_y, angular_z, stamp, 
0.03474634885787964,0.008284807205200195,-0.00028539483356248104,0.943013221
0.5469556450843811,-0.023838937282562256,0.005882557263716965,0.96578973
0.765569269657135,0.06538701057434082,0.09682862123293022,1.006209915
1.109681487083435,0.1687212586402893,0.17803183137578252,1.023894936
0.8793172240257263,-0.12787604331970215,0.21995940420365584,1.065757611
0.3974396586418152,-0.07990115880966187,0.22613014995162548,1.082661382
1.0204085111618042,0.17389893531799316,0.30538741676907455,1.10767706
0.7050114274024963,0.3025178909301758,0.2985858109830405,1.141454482
0.6111065149307251,-0.07992666959762573,0.3493006069302676,1.170187313
0.5926406383514404,-0.025580108165740967,0.4106652600202609,1.203980204
0.9326326847076416,0.5449737310409546,0.4427786045229171,1.22530179
0.6669287085533142,-0.09310418367385864,0.5163194453856322,1.254756267
0.9874829053878784,0.02824532985687256,0.5025968774789606,1.288757366
0.27456456422805786,0.14414101839065552,0.5290344596372606,1.31726341
0.9995512366294861,0.015562951564788818,0.6729181702603231,1.347020038
0.13287478685379028,0.30767977237701416,0.6784422909561545,1.377789384
1.214316964149475,0.16624832153320312,0.753287124008823,1.400979398
0.37729400396347046,0.40280669927597046,0.7010734410061874,1.430456877
-0.3089038133621216,0.48288494348526,0.6703221619390419,1.47501881
-0.24125373363494873,-0.03154468536376953,0.6825222629073495,1.500825948
-0.18931907415390015,0.2127208113670349,0.728838068644379,1.540764464
0.06073176860809326,0.38863760232925415,0.705521819998129,1.557089758
0.10158073902130127,0.2666117548942566,0.8434553149403516,1.594086251
-0.09706312417984009,0.28703755140304565,0.7550851063343728,1.612740375
0.12670230865478516,0.1595616340637207,0.77265892315607,1.641547484
-0.14274543523788452,0.30587756633758545,0.7824817898778643,1.670310446
-0.016854286193847656,0.48522818088531494,0.7485696066212361,1.700373395
-0.038423895835876465,0.3560635447502136,0.7111062137788852,1.731044948
-0.2157389521598816,0.2703535556793213,0.6958170262522634,1.761665769
0.5266721248626709,0.041141629219055176,0.7085334117290915,1.794545432
0.16489464044570923,0.03317058086395264,0.8203155432158138,1.820638818
-0.15969276428222656,0.6242958307266235,0.732496619656872,1.850984536
-0.27670562267303467,0.6045914888381958,0.7782671282518391,1.88021197
-0.09027785062789917,0.28179776668548584,0.7619038440959423,1.910215294
-0.18751776218414307,-0.37030911445617676,0.7584329364962044,1.941374356
0.20663106441497803,0.40712088346481323,0.7809953890409723,1.97140473
-0.07897651195526123,0.9175091981887817,0.7223025533518708,2.003011866
-0.3355523943901062,-0.023442506790161133,0.7100914782725961,2.036781918
0.07610708475112915,0.31256037950515747,0.8341230448672254,2.060880775
0.038542091846466064,0.4227476119995117,0.7546497461506714,2.090706936
0.10912233591079712,0.07238686084747314,0.7423876825973347,2.119711249
-0.31293797492980957,0.3207469582557678,0.717883237407407,2.149378431
-0.03223937749862671,0.22275227308273315,0.7370145982278357,2.179971903
0.438406765460968,0.2201017141342163,0.7799680611468566,2.210369436
-0.005098223686218262,0.5022695064544678,0.7108265817965836,2.243118827
-0.24669915437698364,0.02039468288421631,0.6949498914689392,2.27353074
-0.13866019248962402,0.09428846836090088,0.7705534321958053,2.300860387
0.2905091643333435,-0.01824742555618286,0.7204876446313515,2.329227388
0.029908299446105957,0.4107630252838135,0.7418100339011856,2.359448237
-0.1180957555770874,0.9184332489967346,0.7334706880058803,2.390745713
-0.13822126388549805,-0.13976240158081055,0.7463624509429009,2.419389424
-0.05518394708633423,-0.05721479654312134,0.7891371725484017,2.45131168
0.25054311752319336,0.08306354284286499,0.7261247450864754,2.483626147
-0.3778451681137085,0.9605764150619507,0.7827690964363112,2.516077346
0.10730260610580444,0.36074167490005493,0.7955784678862378,2.546123988
-0.3300202488899231,-0.5345854759216309,0.742567369757526,2.568959024
0.2858508825302124,0.11347758769989014,0.7506246403132791,2.598706024
-0.06390887498855591,0.602615237236023,0.7504355475941955,2.62904697
-0.09651178121566772,0.391812801361084,0.7401237926991435,2.659001769
0.49716782569885254,0.36764055490493774,0.7522933540873393,2.691339987
-0.06548017263412476,-0.2676716446876526,0.7008632945867757,2.722654605
-0.02199530601501465,-0.051826536655426025,0.8403560609915187,2.749324121
0.03439277410507202,1.2088731527328491,0.731350609216714,2.780063329
-0.30456864833831787,0.12501174211502075,0.7344851748235033,2.808259398
0.1315574049949646,-0.4295499920845032,0.7569990216659953,2.840263044
-0.2360248565673828,0.07939785718917847,0.757541112579138,2.868368961
0.2530001997947693,0.6233252882957458,0.74307591428705,2.899288376
0.02940201759338379,0.6430031061172485,0.7340921285629269,2.932123978
0.1942460536956787,-0.48585546016693115,0.6824645661793376,2.962760023
0.005548417568206787,0.07998061180114746,0.8735810390332364,2.994555215
-0.05608588457107544,0.6116568446159363,0.8037116716821892,3.02110522
0.2788617014884949,0.07166653871536255,0.6791872803121988,3.048277457
-0.29706716537475586,-0.010951340198516846,0.6971054990257445,3.081979811
-0.10647302865982056,0.12840485572814941,0.7146370420558387,3.121763423
-0.03865194320678711,0.5478735566139221,0.7277912268390949,3.149564652
-0.23466914892196655,0.44735628366470337,0.6936493978688484,3.172675811
-0.23351508378982544,0.12172836065292358,0.6724113898485152,3.209941992
-0.024180829524993896,-0.46238118410110474,0.819252660143167,3.251859191
0.25853896141052246,0.43293702602386475,0.8088065499645527,3.258841062
-0.09969556331634521,0.8225218057632446,0.7919210808124295,3.289726254
0.12993961572647095,0.34420573711395264,0.7560284417978571,3.318216148
-0.013974368572235107,-0.5493101477622986,0.7571661914637368,3.348081965
-0.1224716305732727,0.055256664752960205,0.7514395442343866,3.380605327
0.04434800148010254,0.4755350947380066,0.7041718516220119,3.411295099
0.11620426177978516,0.7702464461326599,0.6687433580359051,3.44514002
0.2582310438156128,0.09311848878860474,0.8399782727566113,3.468612781
-0.5625112056732178,-0.29495102167129517,0.7637547955743452,3.49810914
0.4205285906791687,0.3502345681190491,0.7494782234843709,3.528472766
-0.46212929487228394,0.6113008260726929,0.7380376317044502,3.558084376
0.06904375553131104,0.06358712911605835,0.7342221909791107,3.589095786
0.040251970291137695,-0.22342395782470703,0.7369115779290487,3.618539584
-0.287547767162323,0.08386951684951782,0.7290211712040585,3.650758503
0.2805308699607849,0.7077770829200745,0.7231035900016802,3.681399025
0.020522892475128174,0.3066602349281311,0.8172180200534302,3.71374433
-0.36038196086883545,-0.45005571842193604,0.6938071129737362,3.740234109
-0.09197229146957397,0.3136959671974182,0.7565807442148786,3.768349213
-0.015842437744140625,0.5928633809089661,0.7781178099455068,3.798643334
0.4627301096916199,0.01289820671081543,0.7455675921608106,3.82919686
0.07439315319061279,0.11792278289794922,0.753447802191479,3.858972342
-0.353407621383667,0.23654359579086304,0.6767182035498917,3.892326213
-0.11647653579711914,0.5313575267791748,0.7666162979563691,3.923096892
0.15241801738739014,-0.08774614334106445,0.7685208958429406,3.948645901
-0.1657118797302246,-0.05879795551300049,0.7321638161567525,3.978737972
0.09730911254882812,0.7201593518257141,0.7532125386953654,4.007836496
-0.3055002689361572,0.2652627229690552,0.7423680905859041,4.039165521
0.20134574174880981,0.12077850103378296,0.753492464168156,4.067771849
0.13633811473846436,-0.05008411407470703,0.7793355582517016,4.097970263
-0.36080747842788696,0.13072240352630615,0.7039824410564511,4.131789486
0.1389891505241394,0.780029296875,0.8139800805453674,4.157463463
-0.15104854106903076,0.19132530689239502,0.7201366553001639,4.187857821
0.2364358901977539,-0.3671295642852783,0.7093533280813933,4.217570305
-0.2961665391921997,0.32412755489349365,0.7176648559286641,4.246946134
0.20051974058151245,0.36386120319366455,0.7212910435973482,4.277820594
0.053225815296173096,0.22192102670669556,0.7514669087604631,4.3078749
0.2372657060623169,0.2478116750717163,0.7381601066048256,4.340500141
0.028526782989501953,0.04242986440658569,0.6993345079063643,4.371250192
-0.4730384945869446,0.09496355056762695,0.7892523096157923,4.397473358
-0.07855522632598877,0.5943717956542969,0.7496513963708407,4.428643447
-0.1893889307975769,0.339799702167511,0.7418842818256437,4.456683402
0.2951279282569885,-0.002252638339996338,0.7275549681656073,4.486798904
-0.2792673707008362,-0.3482034206390381,0.7304698548606372,4.517979321
0.18274766206741333,0.40560799837112427,0.717165104494417,4.546796302
0.15259146690368652,0.5431155562400818,0.7520135270999309,4.57864603
0.016721904277801514,0.042109131813049316,0.6930386914918548,4.611065499
-0.20050007104873657,-0.0363197922706604,0.8099215577080568,4.64286338
-0.27705633640289307,0.335071325302124,0.7229801040032792,4.667507319
0.4307531714439392,0.36851966381073,0.7349748446287471,4.697243764
-0.06598693132400513,0.15037959814071655,0.7260462370116895,4.72676462
0.2129034399986267,-0.419641375541687,0.709345325788771,4.756341292
-0.28029757738113403,0.35627681016921997,0.7348554139984219,4.789726639
0.47775429487228394,0.8476768136024475,0.7393255524018548,4.820977769
0.21956133842468262,0.4840664863586426,0.7180154542660261,4.851743152
-0.12402868270874023,-0.5373268127441406,0.8508724612002736,4.882380022
-0.17054617404937744,0.06540936231613159,0.7595927293767347,4.9072096
-0.21394813060760498,0.5576492547988892,0.766221807476771,4.936995992
0.07610112428665161,0.41063714027404785,0.769275623777941,4.966695905
0.5338748097419739,0.2730192542076111,0.7591382997528433,4.995627064
-0.29715585708618164,-0.17866259813308716,0.7532692146205863,5.028234717
-0.006765902042388916,0.36972928047180176,0.6767999771170081,5.058197088
0.20349329710006714,0.3064121603965759,0.7211172162102558,5.09708023
0.07032448053359985,-0.031009316444396973,0.8514647303241175,5.117175226
0.039376020431518555,0.7191982865333557,0.757734067456259,5.146658221
-0.5160823464393616,0.03378242254257202,0.7444912502522836,5.17665642
0.25368350744247437,-0.0575939416885376,0.7542298167465019,5.20630171
0.3102980852127075,0.5209135413169861,0.7779013691618416,5.236506665
0.01946347951889038,0.2651207447052002,0.7226970852306345,5.267696287
-0.04606306552886963,0.32124412059783936,0.6446988981517924,5.299843696
-0.08194315433502197,-0.341852068901062,0.744942944140821,5.333084388
0.4362524151802063,0.38395655155181885,0.8450756619024963,5.356260941
-0.16219234466552734,0.9226071834564209,0.7506166968307957,5.386587503
0.17613822221755981,0.19202303886413574,0.7299127322502361,5.416370126
-0.16876941919326782,-0.22657346725463867,0.7458980516153102,5.445995271
0.43777501583099365,0.9093222618103027,0.7552687632875213,5.475617163
-0.34497952461242676,-0.05106145143508911,0.7458257189751494,5.507823685
-0.14693808555603027,-0.35766953229904175,0.6837028468214944,5.54047165
-0.12333154678344727,0.2902337312698364,0.7825042624287945,5.570537575
-0.2796226143836975,0.5773695707321167,0.7470290086737768,5.596325128
0.6733967065811157,0.5141041874885559,0.7598324665588888,5.626118865
-0.3119933605194092,-0.06688588857650757,0.7521306404187588,5.655166524
0.058606743812561035,-0.15860271453857422,0.7303755988994235,5.685742401
0.011510670185089111,0.6675251126289368,0.7465287555205969,5.715798511
0.14156115055084229,0.11895811557769775,0.7262336204109802,5.748255043
-0.32749760150909424,0.3357608914375305,0.7032736759023351,5.779965979
-0.1571195125579834,-0.1324920654296875,0.8084656993634849,5.811255393
0.1910991072654724,0.18566739559173584,0.7395614667116539,5.83722112
0.13472884893417358,0.18805396556854248,0.7527798762251197,5.865702229
0.18511223793029785,0.34524571895599365,0.768984845900604,5.895361844
-0.4786929488182068,0.4876571297645569,0.7537503476990737,5.92534586
-0.36557644605636597,-0.10085630416870117,0.7558760653679851,5.955066716
0.5621363520622253,-0.007722914218902588,0.7461414396329883,5.990325127
-0.368679404258728,0.3999645709991455,0.7208630821280351,6.018934238
0.052481770515441895,0.4109293222427368,0.8124137863478078,6.052147079
-0.1909922957420349,0.38110262155532837,0.6909026247826169,6.077331229
-0.1349407434463501,-0.5784243941307068,0.735646011063303,6.106962517
0.16280025243759155,0.43769389390945435,0.7700783235567116,6.135725025
0.04678457975387573,1.008042335510254,0.7473419182394401,6.180347046
-0.05529683828353882,0.27504777908325195,0.7129978082684288,6.210297907
-0.06228512525558472,-0.3276691436767578,0.7105151858112758,6.229067476
0.013890326023101807,-0.29575031995773315,0.7186620794608569,6.259372663
0.15107131004333496,0.9873252511024475,0.8745428148964253,6.290730099
-0.13170671463012695,0.8183579444885254,0.7567545698021746,6.315233813
-0.3072534203529358,-0.43884944915771484,0.7450891164616852,6.344998354
-0.1864185333251953,-0.26958346366882324,0.7756644549045496,6.374449604
0.21847647428512573,0.20107817649841309,0.7635171415583034,6.405223132
-0.040660977363586426,0.7145886421203613,0.7553792311492176,6.435381971
0.4566901922225952,0.4030776023864746,0.7171637098934707,6.467050341
-0.2972453236579895,-0.4346426725387573,0.7025975775033158,6.49827343
-0.09595036506652832,0.18596696853637695,0.8791687961726148,6.529831472
-0.023503482341766357,0.7041296362876892,0.7659415995579825,6.554138534
-0.2472359538078308,-0.03316253423690796,0.7545189117561739,6.58515557
0.3061566948890686,0.09452509880065918,0.746499885650462,6.614385452
-0.10821932554244995,0.11999905109405518,0.7347784944558196,6.645746933
-0.06823062896728516,0.12035024166107178,0.7427874964461881,6.675576909
-0.07269144058227539,0.8922671675682068,0.7134489770705106,6.709044367
-0.41523998975753784,-0.13394218683242798,0.8318115320132291,6.740809654
0.19406181573867798,-0.30175137519836426,0.7446816137591517,6.76973593
0.05077725648880005,0.3977593183517456,0.7710850715635325,6.793741257
0.02231985330581665,0.5704293251037598,0.741846271856034,6.823725701
-0.13363689184188843,0.28140103816986084,0.7393687675086857,6.853479316
-0.4070010781288147,-0.9257868528366089,0.7219190266695236,6.883640944
0.027770042419433594,0.16455793380737305,0.7625444639507178,6.914249912
-0.24658918380737305,1.2311674356460571,0.7265464071655877,6.956661931
0.027454912662506104,0.030783653259277344,0.7869181072110593,6.974338303
-0.014014840126037598,-0.09583061933517456,0.7388226656359097,7.008926713
0.23408687114715576,-0.10657495260238647,0.7505125805388361,7.035093337
-0.2834687829017639,0.6292478442192078,0.7467073867512081,7.06327392
-0.16183167695999146,0.9292147159576416,0.7219198500235119,7.093106147
-0.1399366855621338,-0.30949026346206665,0.7043444869910931,7.123092626
-0.20169299840927124,-0.378450870513916,0.7066336596717515,7.159707669
-0.028854429721832275,0.6024872660636902,0.7078174577847941,7.189534685
-0.10117566585540771,0.6088407039642334,0.8150121822943931,7.214501448
0.28105705976486206,0.24153584241867065,0.7425469611907788,7.243818407
-0.36253827810287476,-0.4939132332801819,0.7838477126947831,7.273457124
0.1950005292892456,0.24002254009246826,0.8180450269762554,7.30284923
0.05357271432876587,0.37545549869537354,0.7419463848565373,7.333982559
0.7512893676757812,0.31017130613327026,0.7553294966766998,7.362938918
-0.0951659083366394,-0.08097761869430542,0.7168097008741273,7.394194973
-0.5605051517486572,-0.016781389713287354,0.6726449199733293,7.428253772
0.48403143882751465,0.5003580451011658,0.8189843227934301,7.453586972
-0.2509271502494812,0.20926761627197266,0.7450333050428596,7.483452884
0.3518603444099426,-0.022900104522705078,0.731515179222782,7.521174402
-0.39605653285980225,0.057646214962005615,0.7513291454655148,7.542443517
-0.0035134553909301758,0.15447479486465454,0.7845995170490137,7.572573805
0.38435059785842896,0.44758176803588867,0.7604919043253856,7.603680147
0.20877397060394287,-0.005834519863128662,0.6972404832629282,7.636350565
-0.46601641178131104,-0.05276459455490112,0.6770496858267042,7.668262603
0.03173142671585083,0.6726285219192505,0.865795162324583,7.692829479
0.01935255527496338,0.3269612789154053,0.7717218709198499,7.72262731
0.2654470205307007,0.038166046142578125,0.7358625035426959,7.753261076
0.00339663028717041,-0.3031967282295227,0.7577195209504715,7.783188816
-0.42046892642974854,-0.34035879373550415,0.7696370169472962,7.813031633
0.2798645496368408,0.8341131210327148,0.7661010397793963,7.843655719
-0.23096215724945068,0.3593599200248718,0.6750039140674214,7.874505459
-0.2889164686203003,-0.2558913826942444,0.6761489374287221,7.907610583
0.16681236028671265,0.3228110671043396,0.8223955187382344,7.934070448
-0.4180743098258972,0.24019110202789307,0.7602926542517643,7.962734696
0.4517364501953125,0.014718055725097656,0.6832705493130182,7.990270838
0.03183251619338989,0.1296808123588562,0.8236969517852558,8.022090744
-0.10118162631988525,-0.3056410551071167,0.8003112248839883,8.052074378
0.20701110363006592,0.7886680364608765,0.7645966775329114,8.084048292
-0.0617709755897522,0.21492761373519897,0.7117753221135439,8.115692834
0.05395883321762085,-0.12108117341995239,0.7245162580458099,8.148868594
0.417533278465271,-0.30393415689468384,0.7813369416432914,8.182250628
-0.09377741813659668,0.35842078924179077,0.7358039398968598,8.212165379
0.11527270078659058,0.5702831745147705,0.7544319897692257,8.246215144
-0.1399410367012024,0.6623880863189697,0.7210766345829399,8.275270812
0.05836230516433716,-0.2802562117576599,0.742197911347105,8.312058615
0.6311803460121155,0.3870859742164612,0.8152315188898956,8.341731001
-0.5494635105133057,0.10451143980026245,0.7539975862168599,8.37245042
-0.11053609848022461,0.018124520778656006,0.753591693025154,8.403947434
0.0057367682456970215,0.4523811340332031,0.6894783416943875,8.436695085
-0.53471839427948,-0.02969449758529663,0.7666893310080705,8.463434672
0.27222776412963867,0.16941094398498535,0.7623364119654813,8.492251022
-0.19950687885284424,0.6627352237701416,0.7575704689759853,8.521560267
-0.13747447729110718,0.11214733123779297,0.7311759017730625,8.551222566
0.48087334632873535,0.04909795522689819,0.7378601874904404,8.581336404
0.22145962715148926,-0.02606379985809326,0.7479668129611079,8.611422039
-0.3026426434516907,0.7426186203956604,0.730231098857644,8.643737557
-0.12894725799560547,0.35767585039138794,0.6741479182719252,8.674421456
-0.5111135840415955,-0.21528172492980957,0.8102106510075551,8.701817764
0.3411456346511841,-0.045209288597106934,0.771459263872968,8.731440906
-0.10495615005493164,0.8095966577529907,0.7522661047723803,8.761257208
0.3179996609687805,0.5241734385490417,0.7390199040052227,8.79096335
-0.3023020029067993,-0.12494426965713501,0.7652668287041594,8.821082356
0.4317263960838318,-0.6049867272377014,0.7731432098534803,8.851354302
-0.2653614282608032,0.6522722840309143,0.7668539303426285,8.883321495
0.37538015842437744,0.2019639015197754,0.6945935525611137,8.915698326
-0.5870387554168701,0.13809043169021606,0.8102765952453912,8.94173031
0.27376043796539307,0.3544922471046448,0.7636135319911003,8.97107819
0.08271253108978271,0.27096450328826904,0.7529438598618394,9.001302228
0.01397693157196045,-0.10922473669052124,0.7318629527894587,9.030825088
0.020570695400238037,0.7291073203086853,0.7367873604472411,9.060395423
-0.32232534885406494,0.12208890914916992,0.7033896211889087,9.09174861
-0.06520342826843262,0.010193824768066406,0.694556016237878,9.122570749
-0.003357112407684326,0.68975830078125,0.7164805648975459,9.154263804
-0.1910175085067749,0.3812560439109802,0.8114878074010686,9.181458345
0.02021855115890503,0.05722665786743164,0.7330601746139364,9.210940301
0.3155630826950073,-0.2403547763824463,0.7553325084510887,9.241533079
0.09591108560562134,0.43986064195632935,0.7565585376069945,9.270560709
-0.18131184577941895,0.9641388654708862,0.7502783334050761,9.30170735
0.13655996322631836,0.030706346035003662,0.7418178885368834,9.332147976
0.05701631307601929,-0.4479891061782837,0.7248943314458509,9.363138597
-0.03600513935089111,0.3080851435661316,0.7235914538118304,9.395263284
-0.07306313514709473,0.6904025077819824,0.8422602535195216,9.421142097
-0.18674153089523315,0.4876031279563904,0.7264830483495633,9.450282636
0.24609845876693726,-0.16670799255371094,0.7281051460880666,9.480293858
-0.22959530353546143,-0.21368414163589478,0.7504208944893187,9.511348778
0.018503785133361816,0.9000176191329956,0.7568597297029538,9.540983942
0.08629715442657471,0.6355941295623779,0.7300048956238485,9.571168001
-0.07027775049209595,-0.30547845363616943,0.690927594747148,9.602218079
-0.20919042825698853,-0.272773802280426,0.7233636711610496,9.636212392
-0.21536779403686523,0.40394991636276245,0.863462108632143,9.660689269
0.12642228603363037,0.8634014129638672,0.77106296735519,9.69116838
0.012232422828674316,0.059067726135253906,0.7753940454161139,9.720034349
-0.285223126411438,-0.05306512117385864,0.717392506643863,9.749833096
-0.2820064425468445,0.04171633720397949,0.7481795745764319,9.782014025
-0.13679474592208862,0.7308232188224792,0.7668684920796418,9.811354758
0.14345896244049072,0.25452446937561035,0.7182229951020058,9.845130901
-0.5609962940216064,-0.0672728419303894,0.750756194295842,9.875304673
0.23572105169296265,0.20933789014816284,0.7914400968417344,9.900749937
-0.5224342942237854,0.2751750946044922,0.7458645457189549,9.929549834
0.2109948992729187,0.4681888222694397,0.7389200037433994,9.958934757
0.13743340969085693,0.1738162636756897,0.7173737300012396,9.990797244
-0.5494070649147034,-0.246567964553833,0.7097135343777945,10.020212655
0.44228798151016235,0.4402802586555481,0.7450739825170688,10.050816534
-0.13141506910324097,0.715139627456665,0.6948097972584535,10.082855997
0.13724637031555176,0.1950259804725647,0.7938422511593146,10.110369882
-0.029646754264831543,-0.36092227697372437,0.7323271393702243,10.14597
-0.32066184282302856,0.2547980546951294,0.7418644430824767,10.169424716
0.24316978454589844,0.9054809212684631,0.7780488428258713,10.199387377
-0.39225876331329346,0.5699889659881592,0.7412385494542577,10.230609472
0.019344329833984375,-0.6725244522094727,0.7106730186009728,10.259894798
-0.5668339729309082,-0.2860110402107239,0.693681997370425,10.294556139
0.137012779712677,0.6517811417579651,0.7234566321759334,10.32333578
-0.1516987681388855,0.742902934551239,0.8081514296015904,10.349866848
0.24507123231887817,0.44224220514297485,0.720178420494805,10.380279553
-0.5085034966468811,-0.570243239402771,0.7413087814598892,10.408645696
-0.1755266785621643,0.4413859248161316,0.7444102045906904,10.440157894
0.069549560546875,0.4911820888519287,0.7411930231171296,10.46903219
-0.38719141483306885,0.019661426544189453,0.7067809466516664,10.498484278
0.10550892353057861,0.3528207540512085,0.7101372158333382,10.532023109
-0.5814754366874695,0.24123656749725342,0.6978501641558269,10.562519534
-0.10568535327911377,-0.17644178867340088,0.8269924077659001,10.594510796
0.40048784017562866,0.47240281105041504,0.7501891444392318,10.619318629
-0.004767239093780518,0.22881484031677246,0.7273492000770063,10.64865347
0.12678730487823486,0.22425860166549683,0.7511487415217226,10.679390497
-0.0495266318321228,0.16803300380706787,0.7720258957429122,10.709158421
0.5296043157577515,0.0411832332611084,0.7249280077074236,10.740976762
0.03385472297668457,0.06820440292358398,0.677299431633114,10.772330635
-0.48770850896835327,0.897071897983551,0.6727607026852312,10.805281077
-0.2148064374923706,0.24569171667099,0.824723228781914,10.830005627
-0.0630488395690918,-0.24326032400131226,0.7737165981838161,10.858843409
0.23918801546096802,0.027174532413482666,0.7261536029442629,10.889710525
-0.15091246366500854,0.2530730962753296,0.7085773387023403,10.918860321
-0.47498393058776855,0.7343484163284302,0.7388744352703275,10.948262774
1.2124013900756836,0.1700993776321411,0.7615037057454931,10.979598828
-0.5254189968109131,0.23739993572235107,0.6951974191719598,11.010944164
0.18219900131225586,0.0074271559715271,0.6457338989426987,11.04366851
-0.2035144567489624,0.37230873107910156,0.7780897068312598,11.069222896
-0.43933093547821045,0.49983924627304077,0.728737214914598,11.098867405
0.12232339382171631,-0.00408250093460083,0.7271236707177517,11.129064646
-1.1816896200180054,0.2880603075027466,0.7051213109963536,11.158306047
-0.1818065047264099,0.208798348903656,0.7427897057655173,11.1898676
-0.11650794744491577,0.5915964841842651,0.787594750483273,11.219536994
0.1714075207710266,-0.40452146530151367,0.7314153079334899,11.25143152
0.1915009617805481,0.3182365894317627,0.7279809433841973,11.283457172
-0.18663787841796875,0.20105600357055664,0.7643679662983585,11.319426825
-0.18339693546295166,0.40366339683532715,0.749680715428397,11.340000332
-0.7135753035545349,0.6084781885147095,0.7402576945206492,11.369482892
0.695817768573761,-0.21361935138702393,0.7462951449327956,11.398168809
-0.5637236833572388,0.3895277976989746,0.7164705197150627,11.428618786
0.11667996644973755,0.2637180685997009,0.6914925726565258,11.458160561
0.2860437035560608,0.2639293670654297,0.7065084722646734,11.491415028
-0.22449958324432373,0.36044102907180786,0.8216419735517095,11.518329556
0.13834887742996216,-0.10126864910125732,0.7086926295187249,11.548558757
-1.2466907501220703,0.4482957720756531,0.7228972251819906,11.578565853
0.01822531223297119,0.5898358821868896,0.7134035163312124,11.607805011
-0.1587604284286499,0.007973432540893555,0.7460104219399522,11.643566305
-0.6674120426177979,0.38825106620788574,0.7226321428583817,11.66870969
0.043067216873168945,-0.2562912702560425,0.6648851210786826,11.700006902
-0.2835301160812378,0.1867225170135498,0.6591821107553278,11.732265052
0.7612210512161255,0.44955748319625854,0.8021191498347399,11.757949986
-0.33509373664855957,0.6277696490287781,0.7499268643783042,11.787556158
-0.35767030715942383,0.25158023834228516,0.7386087189060947,11.8176408
-0.5674629807472229,-0.0023859143257141113,0.7598847287950731,11.847180234
0.30029022693634033,0.002809584140777588,0.7579097181323571,11.878188677
0.040530264377593994,0.4897874593734741,0.7518110649067625,11.907797822
0.02515542507171631,0.6315978169441223,0.7157762519022712,11.940060594
-0.3762912154197693,0.2151913046836853,0.6880012281555156,11.970815284
-0.36201757192611694,-0.23659038543701172,0.8048146867974726,12.002706671
0.484907329082489,-0.007097125053405762,0.7528376690789708,12.034167197
-0.2816320061683655,0.6340081095695496,0.7392442101425796,12.057513378
-0.12494480609893799,0.38707244396209717,0.7354007627257757,12.087235015
0.05293232202529907,-0.21695762872695923,0.7506878380248743,12.117511505
-0.06533604860305786,-0.13324576616287231,0.740666716227955,12.148568881
0.11954820156097412,0.47534453868865967,0.7110431783375396,12.180360737
-0.11223816871643066,0.9786127805709839,0.680696546694228,12.211841399
0.041992247104644775,-0.07663989067077637,0.7989860526142685,12.238140832
-0.031636714935302734,-0.14723479747772217,0.7617975290110387,12.267130016
0.0178259015083313,-0.08495718240737915,0.7639527242504422,12.29649069
-0.1306239366531372,0.907055139541626,0.7606630142710552,12.328119684
0.2002561092376709,0.8156612515449524,0.7387889878605769,12.357447658
-0.42023032903671265,-0.20834559202194214,0.732526946712589,12.389251675
0.029033124446868896,0.16197258234024048,0.7269231077062107,12.419341479
-0.1378176212310791,0.5554517507553101,0.7180781723004842,12.450872048
-0.28839659690856934,0.02936655282974243,0.7889769954288318,12.476954917
0.07421773672103882,0.1920040249824524,0.716910417665268,12.507590529
0.14423257112503052,-0.09712463617324829,0.7315778072469022,12.536950149
-0.16420847177505493,0.5045660734176636,0.7375598287539344,12.567701606
0.09961789846420288,0.7307003736495972,0.7209900032841139,12.596118339
-0.2684350609779358,0.2213534116744995,0.7356448212515981,12.628929475
0.26236945390701294,-0.31932228803634644,0.7205367130495218,12.659713721
-0.1628468632698059,0.40629106760025024,0.7564374209001253,12.692569821
0.17123955488204956,0.7349094748497009,0.8205724538499835,12.71705799
-0.36969971656799316,0.2294623851776123,0.7656322360727477,12.747066685
0.30214864015579224,-0.6097238063812256,0.727040806951096,12.776081221
-0.04310852289199829,0.36152392625808716,0.7737559709105508,12.806779801
0.13561177253723145,1.0829428434371948,0.7683344890497462,12.836464908
0.2512980103492737,0.051688313484191895,0.7458317342379017,12.867624192
0.1693616509437561,-0.11712318658828735,0.7040759799412206,12.89871338
0.2323874831199646,0.21206623315811157,0.7768888570463289,12.931189783
-0.44379425048828125,0.4241655468940735,0.7971433056073849,12.956594854
0.23650860786437988,0.702272355556488,0.7352826865503078,12.987724977
-0.20294123888015747,-0.21176570653915405,0.7071588546614006,13.0163075
0.21633493900299072,-0.4092813730239868,0.7119877536855246,13.048680002
0.02594912052154541,0.7706353068351746,0.7448192299960966,13.076216787
0.21702611446380615,0.5627485513687134,0.7088031645349478,13.108186503
0.48520857095718384,0.23033112287521362,0.6594315580458802,13.140826453
-0.23900598287582397,-0.2785531282424927,0.8048765649435081,13.170347856
0.01325070858001709,0.39652472734451294,0.781529694699086,13.19602816
-0.15305912494659424,0.2874162793159485,0.7733375132683431,13.228296544
0.3608992099761963,0.29394465684890747,0.7309207540962145,13.255149198
-0.09791696071624756,-0.18498647212982178,0.7164854897262632,13.28586052
-0.5199523568153381,0.11973804235458374,0.7324222817677702,13.315708196
0.6490371823310852,0.8327958583831787,0.6935064528513968,13.347740767
-0.5004605054855347,0.053933143615722656,0.6996177720866216,13.37908714
0.12127000093460083,-0.2892271876335144,0.8031249233986978,13.410627601
-0.21595633029937744,0.2679886221885681,0.7757335053660761,13.436343211
-0.11059671640396118,0.39393991231918335,0.8163181618868941,13.466199312
0.2725018858909607,0.26094019412994385,0.7279894466701335,13.495168863
0.18578195571899414,-0.09716737270355225,0.7117351456854722,13.525828301
0.006173372268676758,-0.35434675216674805,0.7245826110986702,13.555620825
-0.24357354640960693,0.36950773000717163,0.7318127450053188,13.589451166
0.38955700397491455,0.7263814806938171,0.7000943827431565,13.619190847
-0.10395294427871704,0.2376684546470642,0.8274342548750959,13.650127308
0.536785900592804,0.11969202756881714,0.7561252089191691,13.67500995
-0.5779630541801453,-0.21931743621826172,0.7758177966582042,13.705393117
0.12206405401229858,0.4503946304321289,0.7750074087104329,13.735537525
0.22840815782546997,0.30292367935180664,0.7460355000307464,13.765178602
-0.43119192123413086,-0.12078148126602173,0.7231370055427385,13.794895135
0.5206214785575867,0.3518766760826111,0.6911645621949857,13.828379278
-0.5934146046638489,0.18798291683197021,0.6871711392063616,13.858503864
0.16563719511032104,0.06167095899581909,0.8108518187192589,13.890245018
-0.13406777381896973,-0.026289403438568115,0.7230068349544695,13.914688254
-0.5427026152610779,-0.05795842409133911,0.7266574307411341,13.945239586
-0.04981076717376709,0.9790364503860474,0.7697759679934655,13.97465521
-0.24702823162078857,0.14833396673202515,0.7755370821060136,14.00529433
0.13239800930023193,-0.3922012448310852,0.7397853362021565,14.037335746
0.13664644956588745,0.4477687478065491,0.695637693573821,14.069599826
-0.4524456858634949,0.6380487680435181,0.7233544402690824,14.099374803
0.06034290790557861,0.22985583543777466,0.8424656802423534,14.130101986
-0.1875218152999878,-0.18202447891235352,0.7502219826391027,14.154422723
0.03362071514129639,-0.054634034633636475,0.7172087184738235,14.185301458
-0.11795008182525635,0.5891901850700378,0.7403544809869503,14.214121927
0.000361025333404541,0.735980212688446,0.7602204999713793,14.245099243
-0.11958301067352295,-0.13245117664337158,0.760170725722301,14.27440933
-0.11871689558029175,-0.17927348613739014,0.678478497463854,14.307982598
-0.024843275547027588,0.06457233428955078,0.7276481304598408,14.339977783
-0.12522494792938232,0.44597548246383667,0.7867116641937835,14.374284869
-0.008928120136260986,0.6895062327384949,0.7647890626162925,14.403814208
-0.131375253200531,-0.2589573860168457,0.728079218476959,14.435934473
-0.020509421825408936,0.25864356756210327,0.70244765074021,14.468459394
-0.4616715908050537,0.44013410806655884,0.8239679488392279,14.494476877
-0.02831810712814331,0.00829780101776123,0.7683317919476758,14.529455965
-0.01736372709274292,0.38641053438186646,0.7534154939685332,14.554072244
0.14860540628433228,-0.039616525173187256,0.7083865217568808,14.583803588
-0.5654693245887756,0.2187710404396057,0.7308818326444158,14.613768325
0.08035355806350708,0.5424951314926147,0.7561447729408175,14.646449411
0.19025999307632446,0.7400937676429749,0.7186940990315998,14.6753788
-0.10186505317687988,0.18867260217666626,0.6782845541813134,14.709745497
-0.03412574529647827,-0.5663760304450989,0.8091429412254711,14.740022604
-0.4056853652000427,0.31978511810302734,0.8054401493106055,14.763897988
-0.1428157091140747,0.8507401347160339,0.8044389122145654,14.793061925
-0.005008280277252197,-0.014053523540496826,0.7360981286892135,14.823121226
0.023656249046325684,-0.1616860032081604,0.7169684280584595,14.853258991
-0.061994075775146484,0.19035673141479492,0.7366859657909255,14.883253872
-0.14542537927627563,0.4458314776420593,0.7314528159863806,14.914831448
-0.18869823217391968,0.5325198173522949,0.6848472831894338,14.947653304
-0.26059257984161377,-0.20891988277435303,0.8253474043864736,14.97362412
-0.03527677059173584,-0.21153569221496582,0.7873850128079078,15.014681928
-0.22002685070037842,0.6527271270751953,0.7642215679100296,15.046212352
0.059789955615997314,0.5248513221740723,0.8060420106166071,15.080249874
-0.012375831604003906,0.03366494178771973,0.7100104145400195,15.093368225
-0.16717278957366943,-0.12543880939483643,0.7524658309488165,15.140538392
-0.2095026969909668,0.6123724579811096,0.7330686218018228,15.155775479
-0.23085719347000122,0.01577657461166382,0.6999942841806924,15.189617171
0.20224344730377197,0.2335653305053711,0.835672611479433,15.213619838
-0.43867820501327515,0.09362691640853882,0.7564813701965768,15.242848034
-0.616352915763855,0.5071725249290466,0.7596994402127935,15.273097954
0.5393756031990051,0.3351054787635803,0.7729567087351153,15.302863592
-0.04760706424713135,-0.0074312686920166016,0.7708986007566746,15.333214478
0.04147672653198242,0.1183476448059082,0.7464931853409683,15.363112168
-0.3980507254600525,0.37087899446487427,0.6942230399952628,15.395158733
-0.2330540418624878,0.12069964408874512,0.7146990739648984,15.42833732
0.21446377038955688,0.10651111602783203,0.8241281901431369,15.452872646
-0.01144474744796753,0.13227146863937378,0.7167495361253506,15.482591835
-0.37097251415252686,0.465109646320343,0.7237311669617238,15.512766004
0.3509843349456787,0.3110511302947998,0.7750014345042439,15.542371928
-0.03719383478164673,0.0934070348739624,0.7925969935775379,15.572981354
0.4118151068687439,0.1366511583328247,0.7560472407285665,15.607602996
0.000702977180480957,0.27437978982925415,0.6754991723217869,15.637136098
0.024241864681243896,0.524323582649231,0.7346049176566982,15.668680562
-0.12924283742904663,-0.002803504467010498,0.8304009982994272,15.69240933
-0.07680726051330566,-0.07152348756790161,0.7488737414537496,15.722231016
-0.010691463947296143,0.49875932931900024,0.7359945325576509,15.752196848
-0.24811911582946777,0.8296328783035278,0.7823045159270591,15.782344024
0.1724199652671814,-0.19795572757720947,0.7516498862899901,15.812221849
0.24302667379379272,0.03180211782455444,0.7796200897962905,15.845203
-0.08483600616455078,0.02747476100921631,0.7081595767104747,15.875656271
-0.452240526676178,-0.09058141708374023,0.7803733594937227,15.902584339
0.09340173006057739,0.6886252164840698,0.7383684185592054,15.933495686
0.22242951393127441,0.124411940574646,0.7402566854411246,15.962452337
0.07293701171875,-0.26278096437454224,0.7149091755249694,15.991560137
0.06625646352767944,0.7112583518028259,0.7300177097632503,16.021616227
-0.3230093717575073,0.618705689907074,0.7365121854523011,16.052222769
0.20809942483901978,-0.19782906770706177,0.7743628904006334,16.083939288
1.4424324035644531e-05,-0.09463673830032349,0.7586721236126998,16.116134845
-0.004849791526794434,0.44803768396377563,0.8406765755897396,16.142105288
-0.4291127920150757,0.5693631768226624,0.7474522510783573,16.172167905
0.24005389213562012,-0.01642906665802002,0.7446871402181395,16.202165407
0.11374050378799438,-0.11553537845611572,0.7344779805120869,16.231581374
0.33273792266845703,0.2766690254211426,0.7336365785128021,16.261186468
0.05462545156478882,0.5921724438667297,0.7209868708838432,16.2918814
-0.04829764366149902,0.3597959280014038,0.7298147261604118,16.322360811
0.419014573097229,-0.01828944683074951,0.7116256471069646,16.354776102
-0.32768166065216064,0.2939954996109009,0.8318644529357903,16.381971725
-0.28607696294784546,0.6863048076629639,0.7579429630537696,16.411248264
0.09230387210845947,0.29760366678237915,0.7056487550435568,16.441032544
0.1521925926208496,-0.2885453701019287,0.7412127701080335,16.4711477
0.13413739204406738,0.487729549407959,0.7386984997875033,16.501303084
-0.29429203271865845,0.26729917526245117,0.7131067441411747,16.533483651
0.09288996458053589,0.4823470115661621,0.7348753416754779,16.563463397
0.2874561548233032,0.2905770540237427,0.7609776409859922,16.596336929
-0.3504031300544739,0.16737234592437744,0.8989505209946829,16.621633602
-0.27108049392700195,0.11496800184249878,0.7189684188598917,16.651019058
-0.2802514433860779,0.4562184810638428,0.7336563473305932,16.680798177
0.4246184825897217,-0.04041481018066406,0.7439711708494803,16.710995784
-0.43424105644226074,0.14779305458068848,0.7691171144156023,16.741040136
0.4423396587371826,0.755924642086029,0.7413816612995597,16.770964398
-0.48630040884017944,0.2612588405609131,0.6828982267801943,16.802553225
0.2448682188987732,-0.10513919591903687,0.7240567856336557,16.836301563
-0.04475289583206177,-0.030524849891662598,0.810071160226252,16.861491465
-0.4257386326789856,0.3556728959083557,0.7615246268873427,16.891340105
0.2912319302558899,0.7033650875091553,0.766048198362076,16.920613117
-0.48928970098495483,-0.10263890027999878,0.72655704432698,16.950563685
0.010425329208374023,-0.19195306301116943,0.73023788043729,16.981435061
0.17809313535690308,-0.29761189222335815,0.7512707982186086,17.012164495
-0.21282029151916504,0.7455806136131287,0.6823884639220528,17.045748119
-0.0873449444770813,0.8613897562026978,0.7123681769964967,17.07564271
0.02397286891937256,0.11209088563919067,0.8477335485603692,17.101262215
0.16722816228866577,-0.02203691005706787,0.7792418938633796,17.130511462
-0.3968392014503479,0.8644509315490723,0.6814448248155212,17.160088373
-0.044980406761169434,0.21985149383544922,0.7808617960763955,17.191119059
-0.4151073694229126,0.36635738611221313,0.7362182318954332,17.220113655
0.5108839869499207,0.39709657430648804,0.7425091205327669,17.251224498
-0.4462602734565735,0.12057101726531982,0.7263180768196106,17.283051354
-0.5949654579162598,0.15960627794265747,0.6883329390442811,17.318052658
0.0836801528930664,0.443880558013916,0.7886699018726189,17.346116212
-0.3505721092224121,-0.04592704772949219,0.772315061019034,17.370449371
0.21886849403381348,0.5991995334625244,0.7665016011113741,17.400113118
-0.3979530930519104,0.41880321502685547,0.7486608844059465,17.42992142
-0.22851872444152832,-0.3044903874397278,0.7555831536859988,17.460290248
0.5010498762130737,0.10341209173202515,0.7645957727780878,17.492877282
-0.5184837579727173,0.4312584400177002,0.7004280396478855,17.52374596
0.11489540338516235,0.43694376945495605,0.7954745452749628,17.550260128
-0.42164838314056396,-0.07869464159011841,0.7253905054405573,17.580760443
0.2103831171989441,-0.15543973445892334,0.7220509665892781,17.609798763
-0.2099306583404541,0.519187331199646,0.7465398633147153,17.640794876
0.26036643981933594,0.7857024669647217,0.7589817397211062,17.669595856
-0.17230910062789917,0.29555946588516235,0.7584042026089872,17.699855839
-0.5032764673233032,-0.40188872814178467,0.7687406974922263,17.731269191
0.44247525930404663,-0.313473105430603,0.6739209883919282,17.76280786
-0.4406324028968811,0.9667523503303528,0.8427860399932022,17.795207463
0.31492143869400024,0.5349021553993225,0.7554868946511789,17.820987799
0.014531135559082031,-0.36525583267211914,0.7193703172071054,17.849140754
-0.3442752957344055,-0.4303908348083496,0.7177628117540876,17.879533782
0.08764791488647461,0.5957030057907104,0.7902044582708284,17.909577471
0.2130366563796997,0.8127984404563904,0.7274146106884563,17.941346623
0.39143967628479004,0.04145026206970215,0.7145532852193593,17.972563371
-0.05219900608062744,-0.3895376920700073,0.6750207533310131,18.004088868
-0.5321505069732666,0.14660179615020752,0.7871890692837681,18.036758243
0.27422457933425903,0.7380746006965637,0.7501821875528587,18.05926242
-0.0675165057182312,0.601801872253418,0.7151386891768626,18.090595831
-0.09989094734191895,-0.43434423208236694,0.698846806979383,18.120132608
0.1282711625099182,0.12694120407104492,0.7480724457817626,18.149084142
0.04107058048248291,0.6933107376098633,0.7562005431686631,18.179402907
-0.54913729429245,0.43101346492767334,0.7086125523228498,18.211122844
0.08077651262283325,-0.08863282203674316,0.6896861756912219,18.245541474
-0.3386158347129822,-0.19210320711135864,0.849044373002653,18.269789421
0.15372204780578613,0.32568812370300293,0.7706592683447137,18.299071212
0.08952361345291138,0.9033631682395935,0.7564496826883206,18.329251891
0.07739627361297607,-0.25741177797317505,0.7244011081735278,18.358967433
0.7409319281578064,-0.22057318687438965,0.7149856552775418,18.390587208
-0.3282184600830078,0.6604508757591248,0.7123922865493715,18.419729229
0.015066981315612793,0.2773163914680481,0.6926299008529488,18.452387496
0.16328787803649902,0.6647917032241821,0.7073145414738594,18.483973434
0.061514854431152344,0.02259969711303711,0.7971949347766802,18.510561886
0.1361561417579651,-0.4660668969154358,0.74168037266765,18.540412361
-0.07529294490814209,0.5912488698959351,0.7574917317746763,18.568591017
0.5301132202148438,0.4663757085800171,0.7167349580126418,18.599207562
-0.08216571807861328,0.2631118893623352,0.7150356960559449,18.629292403
-0.176824688911438,-0.10541152954101562,0.7059479349371862,18.659335752
0.04099547863006592,0.322207510471344,0.7394422413666191,18.691761815
0.5326254367828369,0.5767326354980469,0.7760424592248103,18.723151879
0.24252498149871826,-0.029357969760894775,0.741196896191395,18.749346323
-0.27118825912475586,0.003732740879058838,0.7367949946504965,18.779616438
-0.18990164995193481,0.4623255729675293,0.7737133266803661,18.808910643
0.018222808837890625,0.2333809733390808,0.7708793907558856,18.839955609
0.10045886039733887,0.5493817329406738,0.7338121119151565,18.869292224
-0.12497639656066895,-0.08520007133483887,0.6798298018135184,18.900129384
0.018035054206848145,0.05534738302230835,0.662992315827457,18.932484546
-0.15312254428863525,0.6038175821304321,0.8363419654520974,18.958827617
0.11223584413528442,-0.14786988496780396,0.6825956089057035,18.996337256
-0.25725656747817993,0.23958879709243774,0.7159708722225989,19.018513361
-0.3993239998817444,0.5770947337150574,0.7442018287870074,19.048432075
-0.2474135160446167,0.7341773509979248,0.758656523445103,19.078264506
-0.21764624118804932,-0.31585419178009033,0.7486292842910156,19.108341894
0.34222161769866943,-0.10373884439468384,0.7305189836700489,19.140918771
-0.11152803897857666,0.4634076952934265,0.676160420589392,19.171091434
-0.36319661140441895,0.8271006941795349,0.8181569822118951,19.198324465
0.3309696316719055,0.2814747095108032,0.755860932576049,19.228809357
-0.43262314796447754,-0.4660413861274719,0.7420381476029123,19.257682842
-0.045699238777160645,0.16625958681106567,0.7243159169857023,19.287657871
-0.26916420459747314,0.08606922626495361,0.7265837529187859,19.318006342
-0.2043115496635437,0.23942720890045166,0.7480107008557624,19.348593358
0.5865442752838135,0.24572467803955078,0.7285847976368901,19.380557848
0.010493099689483643,4.172325134277344e-07,0.6372095888635387,19.411870497
-0.8793021440505981,0.21082329750061035,0.7822819333271542,19.443331158
0.3144117593765259,0.7155889272689819,0.7403932409386851,19.468158828
-0.17742919921875,0.11609399318695068,0.7640115034838781,19.497245317
0.3050587773323059,-0.20973455905914307,0.7432373726267708,19.528270138
-0.17478913068771362,0.5261974334716797,0.7531084300199986,19.557184858
-0.1894189715385437,0.8126547932624817,0.7606573972555036,19.589041311
-0.11201536655426025,-0.07266217470169067,0.7367475126830295,19.619769419
-0.059799015522003174,-0.09525108337402344,0.728028633024522,19.650652574
-0.14477801322937012,0.2211276888847351,0.8131065544948638,19.682431575
0.03499239683151245,0.8246045708656311,0.7495790705189894,19.708601339
-0.2724774479866028,0.04422342777252197,0.7397113802876409,19.737737963
0.10447359085083008,-0.1472950577735901,0.7434424447537119,19.767737055
0.03259187936782837,0.28996795415878296,0.7433113699950604,19.796839319
-0.3294367790222168,0.35711222887039185,0.731595700812318,19.829792641
0.253242552280426,0.7222042679786682,0.7245470135218973,19.860050641
-0.09485900402069092,0.02146977186203003,0.7118973768137544,19.892404176
-0.10013371706008911,-0.2836375832557678,0.8234448445858549,19.917198692
-0.150229811668396,0.647003173828125,0.7335538381894229,19.947670479
-0.09989398717880249,0.40299302339553833,0.7323494590892669,19.976839996
0.2695653438568115,0.11921679973602295,0.7461373375432169,20.006968297
-0.15685218572616577,0.022756516933441162,0.7788243688461637,20.037314306
0.11067217588424683,0.4876437187194824,0.7383387568769193,20.067948416
0.04499459266662598,0.20010846853256226,0.7165933634575704,20.098900949
0.6298727989196777,0.36458271741867065,0.7684470103370767,20.131977978
-0.2394384741783142,0.29466813802719116,0.8474591325077323,20.156870903
-0.3719390630722046,-0.07366782426834106,0.7493465418966171,20.187690666
0.34488481283187866,0.5536131858825684,0.699757044848189,20.216636468
-0.33345913887023926,-0.23628634214401245,0.6979964275260042,20.246926677
0.4407358765602112,0.19887065887451172,0.7508749248988197,20.276197775
-0.1402246356010437,1.0066120624542236,0.7379542786001758,20.309502071
0.1619318723678589,0.06711620092391968,0.672846821188694,20.342396903
0.2512388825416565,-0.07280683517456055,0.768156462236086,20.371728445
0.13222920894622803,0.06319892406463623,0.82398750572994,20.396925126
-0.17674630880355835,0.7684378623962402,0.7594887194894268,20.426811056
-0.0008360743522644043,0.02517598867416382,0.7504944838083716,20.456276487
0.019906997680664062,0.6706042885780334,0.723168313247511,20.486826567
0.24884682893753052,0.5332180857658386,0.7333305841918889,20.516200968
0.08859753608703613,-0.10815346240997314,0.7593360014904859,20.547651318
-0.1924319863319397,-0.03227734565734863,0.689477753870782,20.579669059
-0.026421427726745605,0.6970446705818176,0.8275211459824484,20.611132682
0.14861315488815308,0.22129106521606445,0.7676445470738781,20.637131529
-0.13007479906082153,-0.16381090879440308,0.7792885688143354,20.666965666
0.25643742084503174,0.5404362082481384,0.7510751296267194,20.696816162
-0.26020270586013794,0.3143688440322876,0.7205227212628212,20.726639219
0.24270963668823242,0.20333868265151978,0.7360219555390031,20.75624939
0.11880463361740112,-0.0016644001007080078,0.7265237641666646,20.79107713
-0.15127646923065186,0.02563798427581787,0.6999978536076783,20.819391925
0.29585349559783936,0.7950791716575623,0.7966087800856537,20.851258942
-0.21986931562423706,0.26088404655456543,0.753860137033001,20.876228403
0.19103586673736572,-0.3265414834022522,0.7319220846336765,20.906574336
0.13547396659851074,0.6263177990913391,0.7846629251383276,20.936054983
-0.0954628586769104,0.6877411603927612,0.7539228031790072,20.9661663
0.07858812808990479,-0.08259314298629761,0.7276330864727713,20.995794148
0.12537795305252075,-0.4644802212715149,0.6785090919216741,21.029695147
0.4601175785064697,0.39796024560928345,0.7158115399706227,21.058687517
-0.3058438301086426,0.8575531840324402,0.8065772444120503,21.091209631
0.4021577835083008,0.0538865327835083,0.7073503079462647,21.116035222
-0.4702697992324829,-0.06670528650283813,0.6296150643034353,21.141876896
-0.41261810064315796,-0.06562083959579468,0.8206915457497329,21.171781663
0.3764444589614868,0.47366195917129517,0.7538365547199659,21.195224995
-0.36291003227233887,0.49500584602355957,0.7274920517537503,21.225785781
-0.09310024976730347,-0.46404600143432617,0.7085891135901683,21.255180646
-0.2140655517578125,-0.04427385330200195,0.7399085470490837,21.285931359
-0.10555732250213623,0.59715336561203,0.7737224313622824,21.315761571
0.5641456842422485,0.3000789284706116,0.7084965827057834,21.348220416
0.2678418755531311,0.08616113662719727,0.7285489652766328,21.380171888
-0.2579726576805115,0.31128954887390137,0.8625464570234425,21.410517116
0.2983916401863098,0.5172821879386902,0.7555129095403637,21.437231145
-0.13607072830200195,0.02564913034439087,0.7319508511538619,21.47841129
0.34836268424987793,-0.12917649745941162,0.7381199678051098,21.494984302
-0.14999747276306152,0.74415522813797,0.7298834273822913,21.525896064
0.2951511740684509,0.5455474257469177,0.7197188867084068,21.555840323
0.25804752111434937,0.5360273122787476,0.6999502082419653,21.59017469
0.0821995735168457,0.2612465023994446,0.7321537433441662,21.620168412
-0.4963759183883667,0.07333517074584961,0.799308173002438,21.649965662
0.21686923503875732,0.18503224849700928,0.7517029791908458,21.674765674
-0.3654053807258606,0.42212146520614624,0.7862242507858903,21.705357479
-0.30508750677108765,0.18322676420211792,0.7822918370680161,21.73583059
0.38193631172180176,-0.02948474884033203,0.7427990630760795,21.764978685
-0.6457393765449524,-0.24702072143554688,0.7181602073214168,21.794987504
0.49021273851394653,0.48181575536727905,0.695566775715001,21.828947429
-0.023862719535827637,0.2379024624824524,0.8183965788875899,21.854804746
0.07749831676483154,-0.1303119659423828,0.7267595832764766,21.890585719
0.037429749965667725,0.4924866557121277,0.7303216480473043,21.914983333
-0.23419839143753052,0.6612836122512817,0.751447531532968,21.94524036
0.5044988393783569,-0.20755809545516968,0.7749519376335724,21.974189984
0.2661498188972473,0.1006021499633789,0.795494339100781,22.005624746
0.2197471261024475,0.3409510850906372,0.7072228572869337,22.039092937
-0.29615533351898193,0.5767509937286377,0.6873585644590936,22.069371505
0.2626916766166687,0.2037171721458435,0.8253436208742834,22.095069311
0.029697656631469727,-0.06549453735351562,0.7646934589358257,22.125923664
0.24070113897323608,0.2554319500923157,0.7462513991841019,22.166659882
-0.4971405267715454,-0.40226370096206665,0.7255308010127544,22.196320495
0.19165217876434326,0.3504979610443115,0.7420027742902523,22.22944614
0.203435480594635,0.5696386098861694,0.8870309794680161,22.25442538
-0.25381767749786377,-0.1342795491218567,0.772609165542541,22.284022614
0.030621588230133057,0.27703654766082764,0.7478182195072699,22.31365903
-0.47550660371780396,0.23259729146957397,0.7311634544416302,22.343265147
0.4178532361984253,-0.32838737964630127,0.7284924010836457,22.373744506
0.6885210871696472,0.6888164281845093,0.7294038242883429,22.403550085
0.16284489631652832,0.40060973167419434,0.6861342382952402,22.437322285
-0.02907693386077881,-0.03178125619888306,0.6990067885281878,22.468267175
-0.14045965671539307,0.04225778579711914,0.856754859849103,22.4941794
0.38642799854278564,0.22252953052520752,0.7623826242813544,22.523627765
-0.07672739028930664,0.22138690948486328,0.6619252800095728,22.549429842
-0.29502439498901367,0.6572264432907104,0.8286879298431152,22.583348194
0.022407114505767822,0.0924065113067627,0.7859283045988461,22.613770208
0.1614733338356018,-0.14034205675125122,0.8023743381189445,22.646038958
0.4112849235534668,0.306338369846344,0.7131648562849631,22.675970058
-0.10386353731155396,0.5522031188011169,0.6747063978151281,22.709698341
-0.15789663791656494,0.4333571195602417,0.8148316587023454,22.740321779
0.1974642276763916,0.3934919238090515,0.7500556056698248,22.765983497
0.160936176776886,0.610947847366333,0.7653118716836481,22.792935561
-0.22642582654953003,-0.3655856251716614,0.6835420708485586,22.822963332
-0.056147217750549316,-0.3214918375015259,0.7244335374994485,22.853272234
0.1492897868156433,1.0758992433547974,0.7626533913449118,22.883408884
0.1833069920539856,0.28070229291915894,0.7152658548191899,22.91557678
-0.25341683626174927,-0.1386016607284546,0.7191504554446224,22.947887892
-0.14282113313674927,-0.12400305271148682,0.811399435927351,22.972616838
-0.0012359023094177246,0.4316219687461853,0.7670005056677912,23.003178255
0.7825157642364502,0.3654285669326782,0.755585790481949,23.033998081
0.4175259470939636,0.41967666149139404,0.7567646634380921,23.062766447
-0.18092507123947144,0.18302655220031738,0.7462295710636364,23.094864431
-0.30062413215637207,0.13068777322769165,0.7463669347775131,23.124076029
0.30460238456726074,-0.06425362825393677,0.6814656798390365,23.158278413
-0.028984665870666504,0.2488301396369934,0.7789068378344899,23.183149796
0.04975181818008423,0.7190835475921631,0.7409494349427027,23.212969192
-0.1482633352279663,0.2733350396156311,0.7464292067337093,23.242408211
0.23949450254440308,-0.21923255920410156,0.7492025487861759,23.272184698
0.45201271772384644,0.07836025953292847,0.7283179831129923,23.302727781
0.059434711933135986,0.44449383020401,0.7320346248320558,23.332111438
-0.4167942404747009,0.7218634486198425,0.7293944323614961,23.363474658
0.2911580801010132,-0.16297578811645508,0.7126642421972815,23.394835294
-0.00917893648147583,0.07245373725891113,0.8346542889943159,23.422730908
0.32775425910949707,0.4902362823486328,0.7421558950220467,23.45240709
-0.2703394293785095,0.6868680119514465,0.730977406562236,23.482199064
-0.18561667203903198,0.12746351957321167,0.7573018136687627,23.512032397
0.2539006471633911,-0.15833723545074463,0.7781121778778514,23.542343368
0.08118700981140137,0.24793636798858643,0.7365008608925504,23.572325144
0.028638601303100586,0.3365403413772583,0.7298014220606789,23.603843954
-0.0073639750480651855,0.893661618232727,0.7126715633421049,23.637694777
-0.4410169720649719,-0.315327525138855,0.8537847203802921,23.662670497
-0.39962226152420044,0.023659110069274902,0.7794210025192677,23.691728768
0.12142378091812134,0.4307582974433899,0.7437980507056201,23.721694891
-0.7004902362823486,0.5227857232093811,0.7260281771816085,23.751557295
0.4515213966369629,0.3222600221633911,0.7254654247036554,23.783034936
-0.33292949199676514,-0.17690593004226685,0.7382614733777383,23.811613582
-0.003228485584259033,-0.10716891288757324,0.7190942272521613,23.844922429
-0.12435317039489746,0.8590297102928162,0.7253098816012405,23.8752242
-0.228054940700531,0.39183634519577026,0.8770508885365581,23.902399804
0.2988569140434265,-0.38445979356765747,0.7539150198607667,23.932204184
0.2744635343551636,0.16447371244430542,0.7782513481027511,23.962270017
0.2088516354560852,0.8960860371589661,0.7329245444160433,23.993407664
-0.32311147451400757,0.30824917554855347,0.7338572214320438,24.021496743
0.24477410316467285,-0.40452802181243896,0.7592187142153665,24.052035016
0.12118273973464966,0.09138572216033936,0.7347675897258823,24.084339124
-0.33321404457092285,0.895620584487915,0.6929595049622442,24.116605274
-0.03760111331939697,0.25475841760635376,0.8246937365059661,24.142044916
-0.22409993410110474,-0.1862836480140686,0.7496517696833009,24.172706188
0.12096244096755981,0.24132657051086426,0.7661109399234135,24.201615476
-0.3343806266784668,0.5035362243652344,0.7522343911753004,24.231238835
-0.2397761344909668,0.7163143754005432,0.7255278391010691,24.261020005
-0.022363007068634033,-0.10573077201843262,0.726341062063193,24.292651176
-0.14338922500610352,-0.4622681140899658,0.7149830486228835,24.323012726
0.24851220846176147,0.7596825957298279,0.7227308925994836,24.355251718
-0.4414219260215759,0.6567085981369019,0.8772640693991232,24.381836064
-0.16366899013519287,0.32311129570007324,0.7236640987401497,24.411705138
-0.17021697759628296,-0.45343679189682007,0.7848035126454179,24.442346916
-0.03920167684555054,0.2788221836090088,0.7654134421634177,24.470989258
-0.13142889738082886,0.4306378960609436,0.731350210653873,24.501334574
-0.13158929347991943,0.5527719259262085,0.7207877419655708,24.533609687
0.573187530040741,0.13677603006362915,0.7146567997784785,24.563831284
-0.8706686496734619,-0.10836577415466309,0.7463134847823357,24.596418162
0.33580780029296875,0.6325838565826416,0.8272534974259292,24.621557367
-0.46637803316116333,0.2742742896080017,0.736121028431432,24.650828795
0.19528639316558838,-0.07940030097961426,0.7655920923796993,24.680549359
-0.2939111590385437,0.3281339406967163,0.7678477759077253,24.710673485
-0.05202281475067139,0.2873802185058594,0.7581770864503039,24.741016477
0.6349713206291199,0.3029083013534546,0.7289169258761187,24.771208734
-0.12386327981948853,0.13771837949752808,0.6601597530594243,24.803188095
-0.040132761001586914,-0.11193335056304932,0.7372968405431232,24.836449279
-0.21674823760986328,0.7077133655548096,0.816455635459495,24.86078385
0.23670488595962524,0.5192306637763977,0.751866054102448,24.89104665
0.40957581996917725,-0.332577109336853,0.7586306239923876,24.920263432
-0.17709338665008545,0.11193668842315674,0.7482077484973841,24.950076243
0.14714854955673218,0.47014719247817993,0.7533174285046367,24.981343174
-0.22886031866073608,0.41445404291152954,0.7471065016724091,25.012165662
-0.1278708577156067,0.5497324466705322,0.67981393653895,25.045991828
-0.29984867572784424,-0.14340752363204956,0.7884254182558293,25.071208301
0.6665403842926025,0.1311855912208557,0.7925908193690776,25.100721732
-0.43403756618499756,0.5224711298942566,0.7204451433644788,25.130286177
-0.13975179195404053,0.1358199119567871,0.730117763101293,25.159783158
-0.03173619508743286,0.14058804512023926,0.740411772762599,25.191029251
-0.3942944407463074,-0.3392943739891052,0.7726013167931685,25.219954957
